#
# GrITAS Resource file.
#
#

GrITAS*Vertical_Levels: 1:431

# Vertical levels - Must decrease monotonically
# ---------------------------------------------
#GrITAS*Vertical_Levels:  22:41 43 44 46 47 49 50:62 64:69 71:74 76:79 85:89 91:93 95 101 106 111 117 118 123 124 126 128:139 191:198 200 213:215 217:219 236 247 249 253 265 282 283 288 290 297 301 308 325 

# f5294 (107-chns)
# -----
#GrITAS*Vertical_Levels:  22 23 24 25 26 27 28 29 30 31 32 33 34 35 36 37 38 39 40 41 43 44 46 47 49 51 52 53 54 55 56 57 58 59 60 61 62 64 65 66 67 68 69 71 72 73 74 76 77 78 79 85 86 87 88 89 91 92 93 95 101 106 111 117 118 123 124 126 128 129 130 131 132 133 134 135 136 137 138 139 191 192 193 194 195 196 197 198 200 213 214 215 217 218 219 236 247 250 253 265 282 283 290 297 301 308 325

# User Defined Grid List
# ----------------------
GrITAS*List::
#  kt    var name      kx's
   40    cris          940
::

# CrIS 431 Channel Subset
#Channel              Wavenumber         Freq        Sensitivity
#GSI  inst    iuse       (cm-1)          (Î¼m)        (Primary, Secondary)
GrITAS*Satellite*Info::
1       19      -1      661.250        15.123
2       24      -1      664.375        15.052
3       26      -1      665.625        15.023
4       27      -1      666.250        15.009
5       28      -1      666.875        14.995
6       31      -1      668.750        14.953
7       32      -1      669.375        14.939
8       33      -1      670.000        14.925
9       37      -1      672.500        14.870
10      39      -1      673.750        14.842
11      42      -1      675.625        14.801
12      44      -1      676.875        14.774
13      47      -1      678.750        14.733
14      49      -1      680.000        14.706
15      50      -1      680.625        14.692
16      51      -1      681.250        14.679
17      52      -1      681.875        14.665
18      53      -1      682.500        14.652
19      54      -1      683.125        14.639
20      55      -1      683.750        14.625
21      56      -1      684.375        14.612
22      57       1      685.000        14.599
23      58       1      685.625        14.585
24      59       1      686.250        14.572
25      60       1      686.875        14.559
26      61       1      687.500        14.545
27      62       1      688.125        14.532
28      63       1      688.750        14.519
29      64       1      689.375        14.506
30      65       1      690.000        14.493
31      66       1      690.625        14.480
32      67       1      691.250        14.467
33      68       1      691.875        14.453
34      69       1      692.500        14.440
35      70       1      693.125        14.427
36      71       1      693.750        14.414
37      72       1      694.375        14.401
38      73       1      695.000        14.388
39      74       1      695.625        14.376
40      75       1      696.250        14.363
41      76       1      696.875        14.350
42      77      -1      697.500        14.337
43      78       1      698.125        14.324
44      79       1      698.750        14.311
45      80      -1      699.375        14.298
46      81       1      700.000        14.286
47      82       1      700.625        14.273
48      83      -1      701.250        14.260
49      84       1      701.875        14.248
50      85      -1      702.500        14.235
51      86       1      703.125        14.222
52      87       1      703.750        14.210
53      88       1      704.375        14.197
54      89       1      705.000        14.184
55      90       1      705.625        14.172
56      91       1      706.250        14.159
57      92       1      706.875        14.147
58      93       1      707.500        14.134
59      94       1      708.125        14.122
60      95       1      708.750        14.109
61      96       1      709.375        14.097
62      97       1      710.000        14.085
63      98      -1      710.625        14.072
64      99       1      711.250        14.060
65      100      1      711.875        14.047
66      101      1      712.500        14.035
67      102      1      713.125        14.023
68      103      1      713.750        14.011
69      104      1      714.375        13.998
70      105     -1      715.000        13.986
71      106      1      715.625        13.974
72      107      1      716.250        13.962
73      108      1      716.875        13.949
74      109      1      717.500        13.937
75      110     -1      718.125        13.925
76      111      1      718.750        13.913
77      112      1      719.375        13.901
78      113      1      720.000        13.889
79      114      1      720.625        13.877
80      115     -1      721.250        13.865
81      116     -1      721.875        13.853
82      117     -1      722.500        13.841
83      118     -1      723.125        13.829
84      119     -1      723.750        13.817
85      120      1      724.375        13.805
86      121      1      725.000        13.793
87      122      1      725.625        13.781
88      123      1      726.250        13.769
89      124      1      726.875        13.758
90      125     -1      727.500        13.746
91      126      1      728.125        13.734
92      127      1      728.750        13.722
93      128      1      729.375        13.710
94      129     -1      730.000        13.699
95      130      1      730.625        13.687
96      131     -1      731.250        13.675
97      132     -1      731.875        13.664
98      133     -1      732.500        13.652
99      134     -1      733.125        13.640
100     135     -1      733.750        13.629
101     136      1      734.375        13.617
102     137     -1      735.000        13.605
103     138     -1      735.625        13.594
104     139     -1      736.250        13.582
105     140     -1      736.875        13.571
106     141      1      737.500        13.559
107     142     -1      738.125        13.548
108     143     -1      738.750        13.536
109     144     -1      739.375        13.525
110     145     -1      740.000        13.514
111     146      1      740.625        13.502
112     147     -1      741.250        13.491
113     148     -1      741.875        13.479
114     149     -1      742.500        13.468
115     150     -1      743.125        13.457
116     151     -1      743.750        13.445
117     152      1      744.375        13.434
118     153      1      745.000        13.423
119     154     -1      745.625        13.412
120     155     -1      746.250        13.400
121     156     -1      746.875        13.389
122     157     -1      747.500        13.378
123     158      1      748.125        13.367
124     159      1      748.750        13.356
125     160     -1      749.375        13.344
126     161      1      750.000        13.333
127     162     -1      750.625        13.322
128     163      1      751.250        13.311
129     164      1      751.875        13.300
130     165      1      752.500        13.289
131     166      1      753.125        13.278
132     167      1      753.750        13.267
133     168      1      754.375        13.256
134     169      1      755.000        13.245
135     170      1      755.625        13.234
136     171      1      756.250        13.223
137     172      1      756.875        13.212
138     173      1      757.500        13.201
139     174      1      758.125        13.190
140     175     -1      758.750        13.180
141     176     -1      759.375        13.169
142     177     -1      760.000        13.158
143     178     -1      760.625        13.147
144     179     -1      761.250        13.136
145     180     -1      761.875        13.126
146     181     -1      762.500        13.115
147     182     -1      763.125        13.104
148     183     -1      763.750        13.093
149     184     -1      764.375        13.083
150     185     -1      765.000        13.072
151     186     -1      765.625        13.061
152     187     -1      766.250        13.051
153     188     -1      766.875        13.040
154     189     -1      767.500        13.029
155     190     -1      768.125        13.019
156     191     -1      768.750        13.008
157     192     -1      769.375        12.998
158     193     -1      770.000        12.987
159     194     -1      770.625        12.976
160     195     -1      771.250        12.966
161     196     -1      771.875        12.955
162     197     -1      772.500        12.945
163     198     -1      773.125        12.935
164     199     -1      773.750        12.924
165     200     -1      774.375        12.914
166     208     -1      779.375        12.831
167     211     -1      781.250        12.800
168     216     -1      784.375        12.749
169     224     -1      789.375        12.668
170     234     -1      795.625        12.569
171     236     -1      796.875        12.549
172     238     -1      798.125        12.529
173     239     -1      798.750        12.520
174     242     -1      800.625        12.490
175     246     -1      803.125        12.451
176     248     -1      804.375        12.432
177     255     -1      808.750        12.365
178     264     -1      814.375        12.279
179     266     -1      815.625        12.261
180     268     -1      816.875        12.242
181     275     -1      821.250        12.177
182     279     -1      823.750        12.140
183     283     -1      826.250        12.103
184     285     -1      827.500        12.085
185     291     -1      831.250        12.030
186     295     -1      833.750        11.994
187     301     -1      837.500        11.940
188     305     -1      840.000        11.905
189     311     -1      843.750        11.852
190     332     -1      856.875        11.670
191     342      1      863.125        11.586
192     389      1      892.500        11.204
193     400      1      899.375        11.119
194     402      1      900.625        11.103
195     404      1      901.875        11.088
196     406      1      903.125        11.073
197     410      1      905.625        11.042
198     427      1      916.250        10.914
199     439     -1      923.750        10.825
200     440      1      924.375        10.818
201     441     -1      925.000        10.811
202     445     -1      927.500        10.782
203     449     -1      930.000        10.753
204     455     -1      933.750        10.710
205     458     -1      935.625        10.688
206     461     -1      937.500        10.667
207     464     -1      939.375        10.645
208     467     -1      941.250        10.624
209     470     -1      943.125        10.603
210     473     -1      945.000        10.582
211     475     -1      946.250        10.568
212     482     -1      950.625        10.519
213     486      1      953.125        10.492
214     487      1      953.750        10.485
215     490      1      955.625        10.464
216     493     -1      957.500        10.444
217     496      1      959.375        10.423
218     499      1      961.250        10.403
219     501      1      962.500        10.390
220     503     -1      963.750        10.376
221     505     -1      965.000        10.363
222     511     -1      968.750        10.323
223     513     -1      970.000        10.309
224     514     -1      970.625        10.303
225     518     -1      973.125        10.276
226     519     -1      973.750        10.270
227     520     -1      974.375        10.263
228     522     -1      975.625        10.250
229     529     -1      980.000        10.204
230     534     -1      983.125        10.172
231     563     -1      1001.250        9.988
232     568     -1      1004.375        9.956
233     575     -1      1008.750        9.913
234     592     -1      1019.375        9.810
235     594     -1      1020.625        9.798
236     596      1      1021.875        9.786
237     598     -1      1023.125        9.774
238     600     -1      1024.375        9.762
239     602     -1      1025.625        9.750
240     604     -1      1026.875        9.738
241     611     -1      1031.250        9.697
242     614     -1      1033.125        9.679
243     616     -1      1034.375        9.668
244     618     -1      1035.625        9.656
245     620     -1      1036.875        9.644
246     622     -1      1038.125        9.633
247     626      1      1040.625        9.610
248     631     -1      1043.750        9.581
249     638     -1      1048.125        9.541
250     646      1      1053.125        9.496
251     648     -1      1054.375        9.484
252     652     -1      1056.875        9.462
253     659      1      1061.250        9.423
254     673     -1      1070.000        9.346
255     675     -1      1071.250        9.335
256     678     -1      1073.125        9.319
257     684     -1      1076.875        9.286
258     688     -1      1079.375        9.265
259     694     -1      1083.125        9.233
260     700     -1      1086.875        9.201
261     707     -1      1091.250        9.164
262     710     -1      1093.125        9.148
263     713     -1      1095.000        9.132
264     714     -1      1210.000        8.264
265     718      1      1212.500        8.247
266     720     -1      1213.750        8.239
267     722     -1      1215.000        8.230
268     725     -1      1216.875        8.218
269     728     -1      1218.750        8.205
270     735     -1      1223.125        8.176
271     742     -1      1227.500        8.147
272     748     -1      1231.250        8.122
273     753     -1      1234.375        8.101
274     762     -1      1240.000        8.065
275     780     -1      1251.250        7.992
276     784     -1      1253.750        7.976
277     798     -1      1262.500        7.921
278     849     -1      1294.375        7.726
279     860     -1      1301.250        7.685
280     862     -1      1302.500        7.678
281     866     -1      1305.000        7.663
282     874      1      1310.000        7.634
283     882      1      1315.000        7.605
284     890     -1      1320.000        7.576
285     898     -1      1325.000        7.547
286     906     -1      1330.000        7.519
287     907     -1      1330.625        7.515
288     908     -1      1331.250        7.512
289     914     -1      1335.000        7.491
290     937      1      1349.375        7.411
291     972     -1      1371.250        7.293
292     973     -1      1371.875        7.289
293     978     -1      1375.000        7.273
294     980     -1      1376.250        7.266
295     981     -1      1376.875        7.263
296     988     -1      1381.250        7.240
297     995      1      1385.625        7.217
298     998     -1      1387.500        7.207
299     1000    -1      1388.750        7.201
300     1003    -1      1390.625        7.191
301     1008     1      1393.750        7.175
302     1009    -1      1394.375        7.172
303     1010    -1      1395.000        7.168
304     1014    -1      1397.500        7.156
305     1017    -1      1399.375        7.146
306     1018    -1      1400.000        7.143
307     1020    -1      1401.250        7.136
308     1022     1      1402.500        7.130
309     1024    -1      1403.750        7.124
310     1026    -1      1405.000        7.117
311     1029    -1      1406.875        7.108
312     1030    -1      1407.500        7.105
313     1032    -1      1408.750        7.098
314     1034    -1      1410.000        7.092
315     1037    -1      1411.875        7.083
316     1038    -1      1412.500        7.080
317     1041    -1      1414.375        7.070
318     1042    -1      1415.000        7.067
319     1044    -1      1416.250        7.061
320     1046    -1      1417.500        7.055
321     1049    -1      1419.375        7.045
322     1050    -1      1420.000        7.042
323     1053    -1      1421.875        7.033
324     1054    -1      1422.500        7.030
325     1058     1      1425.000        7.018
326     1060    -1      1426.250        7.011
327     1062    -1      1427.500        7.005
328     1064    -1      1428.750        6.999
329     1066    -1      1430.000        6.993
330     1069    -1      1431.875        6.984
331     1076    -1      1436.250        6.963
332     1077    -1      1436.875        6.960
333     1080    -1      1438.750        6.950
334     1086    -1      1442.500        6.932
335     1091    -1      1445.625        6.917
336     1095    -1      1448.125        6.905
337     1101    -1      1451.875        6.888
338     1109    -1      1456.875        6.864
339     1112    -1      1458.750        6.855
340     1121    -1      1464.375        6.829
341     1128    -1      1468.750        6.809
342     1133    -1      1471.875        6.794
343     1163    -1      1490.625        6.709
344     1172    -1      1496.250        6.683
345     1187    -1      1505.625        6.642
346     1189    -1      1506.875        6.636
347     1205    -1      1516.875        6.593
348     1211    -1      1520.625        6.576
349     1219    -1      1525.625        6.555
350     1231    -1      1533.125        6.523
351     1245    -1      1541.875        6.486
352     1271    -1      1558.125        6.418
353     1289    -1      1569.375        6.372
354     1300    -1      1576.250        6.344
355     1313    -1      1584.375        6.312
356     1316    -1      1586.250        6.304
357     1325    -1      1591.875        6.282
358     1329    -1      1594.375        6.272
359     1346    -1      1605.000        6.231
360     1347    -1      1605.625        6.228
361     1473    -1      1684.375        5.937
362     1474    -1      1685.000        5.935
363     1491    -1      1695.625        5.898
364     1499    -1      1700.625        5.880
365     1553    -1      1734.375        5.766
366     1570    -1      1745.000        5.731
367     1596    -1      2165.625        4.618
368     1602    -1      2169.375        4.610
369     1619    -1      2180.000        4.587
370     1624    -1      2183.125        4.581
371     1635    -1      2190.000        4.566
372     1939    -1      2380.000        4.202
373     1940    -1      2380.625        4.201
374     1941    -1      2381.250        4.199
375     1942    -1      2381.875        4.198
376     1943    -1      2382.500        4.197
377     1944    -1      2383.125        4.196
378     1945    -1      2383.750        4.195
379     1946    -1      2384.375        4.194
380     1947    -1      2385.000        4.193
381     1948    -1      2385.625        4.192
382     1949    -1      2386.250        4.191
383     1950    -1      2386.875        4.190
384     1951    -1      2387.500        4.188
385     1952    -1      2388.125        4.187
386     1953    -1      2388.750        4.186
387     1954    -1      2389.375        4.185
388     1955    -1      2390.000        4.184
389     1956    -1      2390.625        4.183
390     1957    -1      2391.250        4.182
391     1958    -1      2391.875        4.181
392     1959    -1      2392.500        4.180
393     1960    -1      2393.125        4.179
394     1961    -1      2393.750        4.178
395     1962    -1      2394.375        4.176
396     1963    -1      2395.000        4.175
397     1964    -1      2395.625        4.174
398     1965    -1      2396.250        4.173
399     1966    -1      2396.875        4.172
400     1967    -1      2397.500        4.171
401     1968    -1      2398.125        4.170
402     1969    -1      2398.750        4.169
403     1970    -1      2399.375        4.168
404     1971    -1      2400.000        4.167
405     1972    -1      2400.625        4.166
406     1973    -1      2401.250        4.164
407     1974    -1      2401.875        4.163
408     1975    -1      2402.500        4.162
409     1976    -1      2403.125        4.161
410     1977    -1      2403.750        4.160
411     1978    -1      2404.375        4.159
412     1979    -1      2405.000        4.158
413     1980    -1      2405.625        4.157
414     1981    -1      2406.250        4.156
415     1982    -1      2406.875        4.155
416     1983    -1      2407.500        4.154
417     1984    -1      2408.125        4.153
418     1985    -1      2408.750        4.152
419     1986    -1      2409.375        4.150
420     1987    -1      2410.000        4.149
421     2119    -1      2492.500        4.012
422     2140    -1      2505.625        3.991
423     2143    -1      2507.500        3.988
424     2147    -1      2510.000        3.984
425     2153    -1      2513.750        3.978
426     2158    -1      2516.875        3.973
427     2161    -1      2518.750        3.970
428     2168    -1      2523.125        3.963
429     2171    -1      2525.000        3.960
430     2175    -1      2527.500        3.956
431     2182    -1      2531.875        3.950
::
